d7628c89122e8659c73070c56364fac3791cfa0c,taskName,raceSet,blackLabels,whiteLabels,taskNumber,taskURL,name,response,serial,declined,submitLatency,log_serial,trial_id,responseHandle,latency,stimuli,media,data,block3Cond,feedback,d,pristineLatency
d7628c89122e8659c73070c56364fac3791cfa0c,mgr,b,"[""Black people""]","[""White people""]",,,,,,,,,,,,,,,,,,
d7628c89122e8659c73070c56364fac3791cfa0c,realstart,,,,1,realstart.jst,,,,,,,,,,,,,,,,
d7628c89122e8659c73070c56364fac3791cfa0c,explicits,,,,2,explicits.js,,,,,,,,,,,,,,,,
d7628c89122e8659c73070c56364fac3791cfa0c,explicits,,,,,,Tblack_0to10,,0,true,5918,,,,,,,,,,,
d7628c89122e8659c73070c56364fac3791cfa0c,explicits,,,,,,Twhite_0to10,,1,true,950.5999994277954,,,,,,,,,,,
d7628c89122e8659c73070c56364fac3791cfa0c,explicits,,,,,,attributes7,,2,true,1195.0999994277954,,,,,,,,,,,
d7628c89122e8659c73070c56364fac3791cfa0c,demographics,,,,3,demographics.js,,,,,,,,,,,,,,,,
d7628c89122e8659c73070c56364fac3791cfa0c,demographics,,,,,,birthSex,,3,true,3130.699999809265,,,,,,,,,,,
d7628c89122e8659c73070c56364fac3791cfa0c,demographics,,,,,,genderIdentity,,4,true,3128,,,,,,,,,,,
d7628c89122e8659c73070c56364fac3791cfa0c,demographics,,,,,,birthmonth,,5,true,1008.1999998092651,,,,,,,,,,,
d7628c89122e8659c73070c56364fac3791cfa0c,demographics,,,,,,birthyear,,6,true,852.0999994277954,,,,,,,,,,,
d7628c89122e8659c73070c56364fac3791cfa0c,demographics,,,,,,raceomb002,,7,true,1058.1999998092651,,,,,,,,,,,
d7628c89122e8659c73070c56364fac3791cfa0c,demographics,,,,,,ethnicityomb,,8,true,1056.3000001907349,,,,,,,,,,,
d7628c89122e8659c73070c56364fac3791cfa0c,demographics,,,,,,num002,,9,true,866.3000001907349,,,,,,,,,,,
d7628c89122e8659c73070c56364fac3791cfa0c,demographics,,,,,,religion2014,,10,true,1585.8000001907349,,,,,,,,,,,
d7628c89122e8659c73070c56364fac3791cfa0c,demographics,,,,,,religionid,,11,true,881.6000003814697,,,,,,,,,,,
d7628c89122e8659c73070c56364fac3791cfa0c,demographics,,,,,,countrycit002,,12,true,965.8999996185303,,,,,,,,,,,
d7628c89122e8659c73070c56364fac3791cfa0c,demographics,,,,,,countryres002,,13,true,823.6999998092651,,,,,,,,,,,
d7628c89122e8659c73070c56364fac3791cfa0c,demographics,,,,,,postcodenow,,14,true,1005,,,,,,,,,,,
d7628c89122e8659c73070c56364fac3791cfa0c,demographics,,,,,,postcodelong,,15,true,1003.8000001907349,,,,,,,,,,,
d7628c89122e8659c73070c56364fac3791cfa0c,demographics,,,,,,edu,,16,true,1581.1000003814697,,,,,,,,,,,
d7628c89122e8659c73070c56364fac3791cfa0c,demographics,,,,,,occuSelf,,17,true,900.9000005722046,,,,,,,,,,,
d7628c89122e8659c73070c56364fac3791cfa0c,raceiat_instructions,,,,4,raceiat_instructions.jst,,,,,,,,,,,,,,,,
d7628c89122e8659c73070c56364fac3791cfa0c,raceiat,,,,5,raceiat.js,,,,,,,,,,,,,,,,
d7628c89122e8659c73070c56364fac3791cfa0c,raceiat,,,,,,instructions,,,,,0,0,space,2672,"[""dummy""]","["" ""]","{""blockStart"":true,""condition"":""instructions"",""score"":0,""block"":0}",,,,
d7628c89122e8659c73070c56364fac3791cfa0c,raceiat,,,,,,cat1right,,,,,1,1,right,1788,"[[""Black people""]]","[""bm3_nc.jpg""]","{""score"":0,""parcel"":""first"",""corResp"":""right"",""condition"":""White people,Black people"",""block"":1}",,,,
d7628c89122e8659c73070c56364fac3791cfa0c,raceiat,,,,,,cat2left,,,,,2,2,left,803,"[[""White people""]]","[""wf2_nc.jpg""]","{""score"":0,""parcel"":""first"",""corResp"":""left"",""condition"":""White people,Black people"",""block"":1}",,,,
d7628c89122e8659c73070c56364fac3791cfa0c,raceiat,,,,,,cat2left,,,,,3,3,left,1798,"[[""White people""]]","[""wm2_nc.jpg""]","{""score"":1,""parcel"":""first"",""corResp"":""left"",""condition"":""White people,Black people"",""block"":1}",,,,
d7628c89122e8659c73070c56364fac3791cfa0c,raceiat,,,,,,cat1right,,,,,4,4,right,2019,"[[""Black people""]]","[""bf1_nc.jpg""]","{""score"":1,""parcel"":""first"",""corResp"":""right"",""condition"":""White people,Black people"",""block"":1}",,,,
d7628c89122e8659c73070c56364fac3791cfa0c,raceiat,,,,,,cat2left,,,,,5,5,left,322,"[[""White people""]]","[""wf3_nc.jpg""]","{""score"":1,""parcel"":""first"",""corResp"":""left"",""condition"":""White people,Black people"",""block"":1}",,,,
d7628c89122e8659c73070c56364fac3791cfa0c,raceiat,,,,,,cat2left,,,,,6,6,left,612,"[[""White people""]]","[""wf1_nc.jpg""]","{""score"":0,""parcel"":""first"",""corResp"":""left"",""condition"":""White people,Black people"",""block"":1}",,,,
d7628c89122e8659c73070c56364fac3791cfa0c,raceiat,,,,,,cat1right,,,,,7,7,right,837,"[[""Black people""]]","[""bf2_nc.jpg""]","{""score"":0,""parcel"":""first"",""corResp"":""right"",""condition"":""White people,Black people"",""block"":1}",,,,
d7628c89122e8659c73070c56364fac3791cfa0c,raceiat,,,,,,cat1right,,,,,8,8,right,430,"[[""Black people""]]","[""bm1_nc.jpg""]","{""score"":0,""parcel"":""first"",""corResp"":""right"",""condition"":""White people,Black people"",""block"":1}",,,,
d7628c89122e8659c73070c56364fac3791cfa0c,raceiat,,,,,,cat1right,,,,,9,9,right,593,"[[""Black people""]]","[""bm2_nc.jpg""]","{""score"":0,""parcel"":""first"",""corResp"":""right"",""condition"":""White people,Black people"",""block"":1}",,,,
d7628c89122e8659c73070c56364fac3791cfa0c,raceiat,,,,,,cat2left,,,,,10,10,left,5180,"[[""White people""]]","[""wm1_nc.jpg""]","{""score"":1,""parcel"":""first"",""corResp"":""left"",""condition"":""White people,Black people"",""block"":1}",,,,
d7628c89122e8659c73070c56364fac3791cfa0c,raceiat,,,,,,cat2left,,,,,11,11,left,1183,"[[""White people""]]","[""wm3_nc.jpg""]","{""score"":0,""parcel"":""first"",""corResp"":""left"",""condition"":""White people,Black people"",""block"":1}",,,,
d7628c89122e8659c73070c56364fac3791cfa0c,raceiat,,,,,,cat1right,,,,,12,12,right,731,"[[""Black people""]]","[""bf3_nc.jpg""]","{""score"":0,""parcel"":""first"",""corResp"":""right"",""condition"":""White people,Black people"",""block"":1}",,,,
d7628c89122e8659c73070c56364fac3791cfa0c,raceiat,,,,,,cat1right,,,,,13,13,right,1012,"[[""Black people""]]","[""bf3_nc.jpg""]","{""score"":0,""parcel"":""first"",""corResp"":""right"",""condition"":""White people,Black people"",""block"":1}",,,,
d7628c89122e8659c73070c56364fac3791cfa0c,raceiat,,,,,,cat2left,,,,,14,14,left,537,"[[""White people""]]","[""wf3_nc.jpg""]","{""score"":0,""parcel"":""first"",""corResp"":""left"",""condition"":""White people,Black people"",""block"":1}",,,,
d7628c89122e8659c73070c56364fac3791cfa0c,raceiat,,,,,,cat1right,,,,,15,15,right,595,"[[""Black people""]]","[""bm3_nc.jpg""]","{""score"":0,""parcel"":""first"",""corResp"":""right"",""condition"":""White people,Black people"",""block"":1}",,,,
d7628c89122e8659c73070c56364fac3791cfa0c,raceiat,,,,,,cat2left,,,,,16,16,left,749,"[[""White people""]]","[""wm1_nc.jpg""]","{""score"":0,""parcel"":""first"",""corResp"":""left"",""condition"":""White people,Black people"",""block"":1}",,,,
d7628c89122e8659c73070c56364fac3791cfa0c,raceiat,,,,,,cat1right,,,,,17,17,right,617,"[[""Black people""]]","[""bm2_nc.jpg""]","{""score"":0,""parcel"":""first"",""corResp"":""right"",""condition"":""White people,Black people"",""block"":1}",,,,
d7628c89122e8659c73070c56364fac3791cfa0c,raceiat,,,,,,cat1right,,,,,18,18,right,957,"[[""Black people""]]","[""bm1_nc.jpg""]","{""score"":0,""parcel"":""first"",""corResp"":""right"",""condition"":""White people,Black people"",""block"":1}",,,,
d7628c89122e8659c73070c56364fac3791cfa0c,raceiat,,,,,,cat2left,,,,,19,19,left,569,"[[""White people""]]","[""wf1_nc.jpg""]","{""score"":0,""parcel"":""first"",""corResp"":""left"",""condition"":""White people,Black people"",""block"":1}",,,,
d7628c89122e8659c73070c56364fac3791cfa0c,raceiat,,,,,,cat2left,,,,,20,20,left,745,"[[""White people""]]","[""wf2_nc.jpg""]","{""score"":0,""parcel"":""first"",""corResp"":""left"",""condition"":""White people,Black people"",""block"":1}",,,,
d7628c89122e8659c73070c56364fac3791cfa0c,raceiat,,,,,,instructions,,,,,21,21,space,2060,"[""dummy""]","["" ""]","{""blockStart"":true,""condition"":""instructions"",""score"":0,""block"":0}",,,,
d7628c89122e8659c73070c56364fac3791cfa0c,raceiat,,,,,,att1left,,,,,22,22,left,3307,"[""Bad""]","[""Disgust""]","{""score"":0,""parcel"":""first"",""corResp"":""left"",""condition"":""Bad,Good"",""block"":2}",,,,
d7628c89122e8659c73070c56364fac3791cfa0c,raceiat,,,,,,att2right,,,,,23,23,right,813,"[""Good""]","[""Love""]","{""score"":0,""parcel"":""first"",""corResp"":""right"",""condition"":""Bad,Good"",""block"":2}",,,,
d7628c89122e8659c73070c56364fac3791cfa0c,raceiat,,,,,,att1left,,,,,24,24,left,1513,"[""Bad""]","[""Annoy""]","{""score"":0,""parcel"":""first"",""corResp"":""left"",""condition"":""Bad,Good"",""block"":2}",,,,
d7628c89122e8659c73070c56364fac3791cfa0c,raceiat,,,,,,att2right,,,,,25,25,right,771,"[""Good""]","[""Joyous""]","{""score"":0,""parcel"":""first"",""corResp"":""right"",""condition"":""Bad,Good"",""block"":2}",,,,
d7628c89122e8659c73070c56364fac3791cfa0c,raceiat,,,,,,att1left,,,,,26,26,left,750,"[""Bad""]","[""Yucky""]","{""score"":0,""parcel"":""first"",""corResp"":""left"",""condition"":""Bad,Good"",""block"":2}",,,,
d7628c89122e8659c73070c56364fac3791cfa0c,raceiat,,,,,,att2right,,,,,27,27,right,1296,"[""Good""]","[""Excellent""]","{""score"":0,""parcel"":""first"",""corResp"":""right"",""condition"":""Bad,Good"",""block"":2}",,,,
d7628c89122e8659c73070c56364fac3791cfa0c,raceiat,,,,,,att2right,,,,,28,28,right,635,"[""Good""]","[""Fantastic""]","{""score"":0,""parcel"":""first"",""corResp"":""right"",""condition"":""Bad,Good"",""block"":2}",,,,
d7628c89122e8659c73070c56364fac3791cfa0c,raceiat,,,,,,att1left,,,,,29,29,left,602,"[""Bad""]","[""Ugly""]","{""score"":0,""parcel"":""first"",""corResp"":""left"",""condition"":""Bad,Good"",""block"":2}",,,,
d7628c89122e8659c73070c56364fac3791cfa0c,raceiat,,,,,,att2right,,,,,30,30,right,763,"[""Good""]","[""Joyful""]","{""score"":0,""parcel"":""first"",""corResp"":""right"",""condition"":""Bad,Good"",""block"":2}",,,,
d7628c89122e8659c73070c56364fac3791cfa0c,raceiat,,,,,,att1left,,,,,31,31,left,786,"[""Bad""]","[""Detest""]","{""score"":0,""parcel"":""first"",""corResp"":""left"",""condition"":""Bad,Good"",""block"":2}",,,,
d7628c89122e8659c73070c56364fac3791cfa0c,raceiat,,,,,,att2right,,,,,32,32,right,625,"[""Good""]","[""Happy""]","{""score"":0,""parcel"":""first"",""corResp"":""right"",""condition"":""Bad,Good"",""block"":2}",,,,
d7628c89122e8659c73070c56364fac3791cfa0c,raceiat,,,,,,att1left,,,,,33,33,left,1004,"[""Bad""]","[""Sadness""]","{""score"":0,""parcel"":""first"",""corResp"":""left"",""condition"":""Bad,Good"",""block"":2}",,,,
d7628c89122e8659c73070c56364fac3791cfa0c,raceiat,,,,,,att1left,,,,,34,34,left,720,"[""Bad""]","[""Hate""]","{""score"":0,""parcel"":""first"",""corResp"":""left"",""condition"":""Bad,Good"",""block"":2}",,,,
d7628c89122e8659c73070c56364fac3791cfa0c,raceiat,,,,,,att2right,,,,,35,35,right,610,"[""Good""]","[""Adore""]","{""score"":0,""parcel"":""first"",""corResp"":""right"",""condition"":""Bad,Good"",""block"":2}",,,,
d7628c89122e8659c73070c56364fac3791cfa0c,raceiat,,,,,,att2right,,,,,36,36,right,527,"[""Good""]","[""Celebrate""]","{""score"":0,""parcel"":""first"",""corResp"":""right"",""condition"":""Bad,Good"",""block"":2}",,,,
d7628c89122e8659c73070c56364fac3791cfa0c,raceiat,,,,,,att1left,,,,,37,37,left,616,"[""Bad""]","[""Abuse""]","{""score"":0,""parcel"":""first"",""corResp"":""left"",""condition"":""Bad,Good"",""block"":2}",,,,
d7628c89122e8659c73070c56364fac3791cfa0c,raceiat,,,,,,att1left,,,,,38,38,left,629,"[""Bad""]","[""Disgust""]","{""score"":0,""parcel"":""first"",""corResp"":""left"",""condition"":""Bad,Good"",""block"":2}",,,,
d7628c89122e8659c73070c56364fac3791cfa0c,raceiat,,,,,,att2right,,,,,39,39,right,681,"[""Good""]","[""Adore""]","{""score"":0,""parcel"":""first"",""corResp"":""right"",""condition"":""Bad,Good"",""block"":2}",,,,
d7628c89122e8659c73070c56364fac3791cfa0c,raceiat,,,,,,att2right,,,,,40,40,right,648,"[""Good""]","[""Celebrate""]","{""score"":0,""parcel"":""first"",""corResp"":""right"",""condition"":""Bad,Good"",""block"":2}",,,,
d7628c89122e8659c73070c56364fac3791cfa0c,raceiat,,,,,,att1left,,,,,41,41,left,1205,"[""Bad""]","[""Detest""]","{""score"":0,""parcel"":""first"",""corResp"":""left"",""condition"":""Bad,Good"",""block"":2}",,,,
d7628c89122e8659c73070c56364fac3791cfa0c,raceiat,,,,,,instructions,,,,,42,42,space,1022,"[""dummy""]","["" ""]","{""blockStart"":true,""condition"":""instructions"",""score"":0,""block"":0}",,,,
d7628c89122e8659c73070c56364fac3791cfa0c,raceiat,,,,,,cat1right,,,,,43,43,right,2928,"[[""Black people""]]","[""bf1_nc.jpg""]","{""score"":0,""parcel"":""first"",""corResp"":""right"",""condition"":""White people/Bad,Black people/Good"",""block"":3}",,,,
d7628c89122e8659c73070c56364fac3791cfa0c,raceiat,,,,,,att2right,,,,,44,44,right,1592,"[""Good""]","[""Happy""]","{""score"":0,""parcel"":""first"",""corResp"":""right"",""condition"":""White people/Bad,Black people/Good"",""block"":3}",,,,
d7628c89122e8659c73070c56364fac3791cfa0c,raceiat,,,,,,cat2left,,,,,45,45,left,1231,"[[""White people""]]","[""wm3_nc.jpg""]","{""score"":0,""parcel"":""first"",""corResp"":""left"",""condition"":""White people/Bad,Black people/Good"",""block"":3}",,,,
d7628c89122e8659c73070c56364fac3791cfa0c,raceiat,,,,,,att1left,,,,,46,46,left,1114,"[""Bad""]","[""Hate""]","{""score"":0,""parcel"":""first"",""corResp"":""left"",""condition"":""White people/Bad,Black people/Good"",""block"":3}",,,,
d7628c89122e8659c73070c56364fac3791cfa0c,raceiat,,,,,,cat2left,,,,,47,47,left,891,"[[""White people""]]","[""wm2_nc.jpg""]","{""score"":0,""parcel"":""first"",""corResp"":""left"",""condition"":""White people/Bad,Black people/Good"",""block"":3}",,,,
d7628c89122e8659c73070c56364fac3791cfa0c,raceiat,,,,,,att1left,,,,,48,48,left,1152,"[""Bad""]","[""Yucky""]","{""score"":0,""parcel"":""first"",""corResp"":""left"",""condition"":""White people/Bad,Black people/Good"",""block"":3}",,,,
d7628c89122e8659c73070c56364fac3791cfa0c,raceiat,,,,,,cat1right,,,,,49,49,right,659,"[[""Black people""]]","[""bf2_nc.jpg""]","{""score"":0,""parcel"":""first"",""corResp"":""right"",""condition"":""White people/Bad,Black people/Good"",""block"":3}",,,,
d7628c89122e8659c73070c56364fac3791cfa0c,raceiat,,,,,,att2right,,,,,50,50,right,2005,"[""Good""]","[""Joyous""]","{""score"":1,""parcel"":""first"",""corResp"":""right"",""condition"":""White people/Bad,Black people/Good"",""block"":3}",,,,
d7628c89122e8659c73070c56364fac3791cfa0c,raceiat,,,,,,cat2left,,,,,51,51,left,1275,"[[""White people""]]","[""wf1_nc.jpg""]","{""score"":0,""parcel"":""first"",""corResp"":""left"",""condition"":""White people/Bad,Black people/Good"",""block"":3}",,,,
d7628c89122e8659c73070c56364fac3791cfa0c,raceiat,,,,,,att1left,,,,,52,52,left,1055,"[""Bad""]","[""Ugly""]","{""score"":0,""parcel"":""first"",""corResp"":""left"",""condition"":""White people/Bad,Black people/Good"",""block"":3}",,,,
d7628c89122e8659c73070c56364fac3791cfa0c,raceiat,,,,,,cat1right,,,,,53,53,right,743,"[[""Black people""]]","[""bf3_nc.jpg""]","{""score"":0,""parcel"":""first"",""corResp"":""right"",""condition"":""White people/Bad,Black people/Good"",""block"":3}",,,,
d7628c89122e8659c73070c56364fac3791cfa0c,raceiat,,,,,,att2right,,,,,54,54,right,1015,"[""Good""]","[""Excellent""]","{""score"":0,""parcel"":""first"",""corResp"":""right"",""condition"":""White people/Bad,Black people/Good"",""block"":3}",,,,
d7628c89122e8659c73070c56364fac3791cfa0c,raceiat,,,,,,cat2left,,,,,55,55,left,932,"[[""White people""]]","[""wm2_nc.jpg""]","{""score"":0,""parcel"":""first"",""corResp"":""left"",""condition"":""White people/Bad,Black people/Good"",""block"":3}",,,,
d7628c89122e8659c73070c56364fac3791cfa0c,raceiat,,,,,,att2right,,,,,56,56,right,1492,"[""Good""]","[""Joyful""]","{""score"":0,""parcel"":""first"",""corResp"":""right"",""condition"":""White people/Bad,Black people/Good"",""block"":3}",,,,
d7628c89122e8659c73070c56364fac3791cfa0c,raceiat,,,,,,cat1right,,,,,57,57,right,1255,"[[""Black people""]]","[""bm1_nc.jpg""]","{""score"":0,""parcel"":""first"",""corResp"":""right"",""condition"":""White people/Bad,Black people/Good"",""block"":3}",,,,
d7628c89122e8659c73070c56364fac3791cfa0c,raceiat,,,,,,att1left,,,,,58,58,left,1200,"[""Bad""]","[""Abuse""]","{""score"":0,""parcel"":""first"",""corResp"":""left"",""condition"":""White people/Bad,Black people/Good"",""block"":3}",,,,
d7628c89122e8659c73070c56364fac3791cfa0c,raceiat,,,,,,cat1right,,,,,59,59,right,856,"[[""Black people""]]","[""bf2_nc.jpg""]","{""score"":0,""parcel"":""first"",""corResp"":""right"",""condition"":""White people/Bad,Black people/Good"",""block"":3}",,,,
d7628c89122e8659c73070c56364fac3791cfa0c,raceiat,,,,,,att1left,,,,,60,60,left,2289,"[""Bad""]","[""Sadness""]","{""score"":0,""parcel"":""first"",""corResp"":""left"",""condition"":""White people/Bad,Black people/Good"",""block"":3}",,,,
d7628c89122e8659c73070c56364fac3791cfa0c,raceiat,,,,,,cat2left,,,,,61,61,left,1482,"[[""White people""]]","[""wf2_nc.jpg""]","{""score"":0,""parcel"":""first"",""corResp"":""left"",""condition"":""White people/Bad,Black people/Good"",""block"":3}",,,,
d7628c89122e8659c73070c56364fac3791cfa0c,raceiat,,,,,,att2right,,,,,62,62,right,1158,"[""Good""]","[""Fantastic""]","{""score"":0,""parcel"":""first"",""corResp"":""right"",""condition"":""White people/Bad,Black people/Good"",""block"":3}",,,,
d7628c89122e8659c73070c56364fac3791cfa0c,raceiat,,,,,,instructions,,,,,63,63,space,1624,"[""dummy""]","["" ""]","{""blockStart"":true,""condition"":""instructions"",""score"":0,""block"":0}",,,,
d7628c89122e8659c73070c56364fac3791cfa0c,raceiat,,,,,,cat1right,,,,,64,64,right,1813,"[[""Black people""]]","[""bf1_nc.jpg""]","{""score"":0,""parcel"":""first"",""corResp"":""right"",""condition"":""White people/Bad,Black people/Good"",""block"":4}",,,,
d7628c89122e8659c73070c56364fac3791cfa0c,raceiat,,,,,,att2right,,,,,65,65,right,1936,"[""Good""]","[""Love""]","{""score"":0,""parcel"":""first"",""corResp"":""right"",""condition"":""White people/Bad,Black people/Good"",""block"":4}",,,,
d7628c89122e8659c73070c56364fac3791cfa0c,raceiat,,,,,,cat2left,,,,,66,66,left,2949,"[[""White people""]]","[""wm1_nc.jpg""]","{""score"":0,""parcel"":""first"",""corResp"":""left"",""condition"":""White people/Bad,Black people/Good"",""block"":4}",,,,
d7628c89122e8659c73070c56364fac3791cfa0c,raceiat,,,,,,att1left,,,,,67,67,left,867,"[""Bad""]","[""Annoy""]","{""score"":0,""parcel"":""first"",""corResp"":""left"",""condition"":""White people/Bad,Black people/Good"",""block"":4}",,,,
d7628c89122e8659c73070c56364fac3791cfa0c,raceiat,,,,,,cat1right,,,,,68,68,right,787,"[[""Black people""]]","[""bm3_nc.jpg""]","{""score"":0,""parcel"":""first"",""corResp"":""right"",""condition"":""White people/Bad,Black people/Good"",""block"":4}",,,,
d7628c89122e8659c73070c56364fac3791cfa0c,raceiat,,,,,,att1left,,,,,69,69,left,1037,"[""Bad""]","[""Annoy""]","{""score"":0,""parcel"":""first"",""corResp"":""left"",""condition"":""White people/Bad,Black people/Good"",""block"":4}",,,,
d7628c89122e8659c73070c56364fac3791cfa0c,raceiat,,,,,,cat2left,,,,,70,70,left,1029,"[[""White people""]]","[""wm3_nc.jpg""]","{""score"":0,""parcel"":""first"",""corResp"":""left"",""condition"":""White people/Bad,Black people/Good"",""block"":4}",,,,
d7628c89122e8659c73070c56364fac3791cfa0c,raceiat,,,,,,att2right,,,,,71,71,right,1033,"[""Good""]","[""Celebrate""]","{""score"":0,""parcel"":""first"",""corResp"":""right"",""condition"":""White people/Bad,Black people/Good"",""block"":4}",,,,
d7628c89122e8659c73070c56364fac3791cfa0c,raceiat,,,,,,cat1right,,,,,72,72,right,933,"[[""Black people""]]","[""bm2_nc.jpg""]","{""score"":0,""parcel"":""first"",""corResp"":""right"",""condition"":""White people/Bad,Black people/Good"",""block"":4}",,,,
d7628c89122e8659c73070c56364fac3791cfa0c,raceiat,,,,,,att1left,,,,,73,73,left,939,"[""Bad""]","[""Abuse""]","{""score"":0,""parcel"":""first"",""corResp"":""left"",""condition"":""White people/Bad,Black people/Good"",""block"":4}",,,,
d7628c89122e8659c73070c56364fac3791cfa0c,raceiat,,,,,,cat2left,,,,,74,74,left,806,"[[""White people""]]","[""wf3_nc.jpg""]","{""score"":0,""parcel"":""first"",""corResp"":""left"",""condition"":""White people/Bad,Black people/Good"",""block"":4}",,,,
d7628c89122e8659c73070c56364fac3791cfa0c,raceiat,,,,,,att2right,,,,,75,75,right,2075,"[""Good""]","[""Adore""]","{""score"":1,""parcel"":""first"",""corResp"":""right"",""condition"":""White people/Bad,Black people/Good"",""block"":4}",,,,
d7628c89122e8659c73070c56364fac3791cfa0c,raceiat,,,,,,cat2left,,,,,76,76,left,1106,"[[""White people""]]","[""wm2_nc.jpg""]","{""score"":0,""parcel"":""first"",""corResp"":""left"",""condition"":""White people/Bad,Black people/Good"",""block"":4}",,,,
d7628c89122e8659c73070c56364fac3791cfa0c,raceiat,,,,,,att1left,,,,,77,77,left,1946,"[""Bad""]","[""Sadness""]","{""score"":1,""parcel"":""first"",""corResp"":""left"",""condition"":""White people/Bad,Black people/Good"",""block"":4}",,,,
d7628c89122e8659c73070c56364fac3791cfa0c,raceiat,,,,,,cat1right,,,,,78,78,right,1537,"[[""Black people""]]","[""bm3_nc.jpg""]","{""score"":0,""parcel"":""first"",""corResp"":""right"",""condition"":""White people/Bad,Black people/Good"",""block"":4}",,,,
d7628c89122e8659c73070c56364fac3791cfa0c,raceiat,,,,,,att2right,,,,,79,79,right,2043,"[""Good""]","[""Fantastic""]","{""score"":1,""parcel"":""first"",""corResp"":""right"",""condition"":""White people/Bad,Black people/Good"",""block"":4}",,,,
d7628c89122e8659c73070c56364fac3791cfa0c,raceiat,,,,,,cat1right,,,,,80,80,right,1411,"[[""Black people""]]","[""bf2_nc.jpg""]","{""score"":0,""parcel"":""first"",""corResp"":""right"",""condition"":""White people/Bad,Black people/Good"",""block"":4}",,,,
d7628c89122e8659c73070c56364fac3791cfa0c,raceiat,,,,,,att2right,,,,,81,81,right,1157,"[""Good""]","[""Joyous""]","{""score"":0,""parcel"":""first"",""corResp"":""right"",""condition"":""White people/Bad,Black people/Good"",""block"":4}",,,,
d7628c89122e8659c73070c56364fac3791cfa0c,raceiat,,,,,,cat2left,,,,,82,82,left,803,"[[""White people""]]","[""wf1_nc.jpg""]","{""score"":0,""parcel"":""first"",""corResp"":""left"",""condition"":""White people/Bad,Black people/Good"",""block"":4}",,,,
d7628c89122e8659c73070c56364fac3791cfa0c,raceiat,,,,,,att1left,,,,,83,83,left,2437,"[""Bad""]","[""Disgust""]","{""score"":0,""parcel"":""first"",""corResp"":""left"",""condition"":""White people/Bad,Black people/Good"",""block"":4}",,,,
d7628c89122e8659c73070c56364fac3791cfa0c,raceiat,,,,,,cat2left,,,,,84,84,left,1085,"[[""White people""]]","[""wf2_nc.jpg""]","{""score"":0,""parcel"":""first"",""corResp"":""left"",""condition"":""White people/Bad,Black people/Good"",""block"":4}",,,,
d7628c89122e8659c73070c56364fac3791cfa0c,raceiat,,,,,,att1left,,,,,85,85,left,785,"[""Bad""]","[""Yucky""]","{""score"":0,""parcel"":""first"",""corResp"":""left"",""condition"":""White people/Bad,Black people/Good"",""block"":4}",,,,
d7628c89122e8659c73070c56364fac3791cfa0c,raceiat,,,,,,cat1right,,,,,86,86,right,728,"[[""Black people""]]","[""bm2_nc.jpg""]","{""score"":0,""parcel"":""first"",""corResp"":""right"",""condition"":""White people/Bad,Black people/Good"",""block"":4}",,,,
d7628c89122e8659c73070c56364fac3791cfa0c,raceiat,,,,,,att2right,,,,,87,87,right,1110,"[""Good""]","[""Joyful""]","{""score"":0,""parcel"":""first"",""corResp"":""right"",""condition"":""White people/Bad,Black people/Good"",""block"":4}",,,,
d7628c89122e8659c73070c56364fac3791cfa0c,raceiat,,,,,,cat2left,,,,,88,88,left,912,"[[""White people""]]","[""wm1_nc.jpg""]","{""score"":0,""parcel"":""first"",""corResp"":""left"",""condition"":""White people/Bad,Black people/Good"",""block"":4}",,,,
d7628c89122e8659c73070c56364fac3791cfa0c,raceiat,,,,,,att1left,,,,,89,89,left,1780,"[""Bad""]","[""Hate""]","{""score"":0,""parcel"":""first"",""corResp"":""left"",""condition"":""White people/Bad,Black people/Good"",""block"":4}",,,,
d7628c89122e8659c73070c56364fac3791cfa0c,raceiat,,,,,,cat1right,,,,,90,90,right,718,"[[""Black people""]]","[""bf1_nc.jpg""]","{""score"":0,""parcel"":""first"",""corResp"":""right"",""condition"":""White people/Bad,Black people/Good"",""block"":4}",,,,
d7628c89122e8659c73070c56364fac3791cfa0c,raceiat,,,,,,att2right,,,,,91,91,right,1059,"[""Good""]","[""Excellent""]","{""score"":0,""parcel"":""first"",""corResp"":""right"",""condition"":""White people/Bad,Black people/Good"",""block"":4}",,,,
d7628c89122e8659c73070c56364fac3791cfa0c,raceiat,,,,,,cat1right,,,,,92,92,right,916,"[[""Black people""]]","[""bf3_nc.jpg""]","{""score"":0,""parcel"":""first"",""corResp"":""right"",""condition"":""White people/Bad,Black people/Good"",""block"":4}",,,,
d7628c89122e8659c73070c56364fac3791cfa0c,raceiat,,,,,,att2right,,,,,93,93,right,695,"[""Good""]","[""Happy""]","{""score"":0,""parcel"":""first"",""corResp"":""right"",""condition"":""White people/Bad,Black people/Good"",""block"":4}",,,,
d7628c89122e8659c73070c56364fac3791cfa0c,raceiat,,,,,,cat2left,,,,,94,94,left,707,"[[""White people""]]","[""wf3_nc.jpg""]","{""score"":0,""parcel"":""first"",""corResp"":""left"",""condition"":""White people/Bad,Black people/Good"",""block"":4}",,,,
d7628c89122e8659c73070c56364fac3791cfa0c,raceiat,,,,,,att1left,,,,,95,95,left,1067,"[""Bad""]","[""Detest""]","{""score"":0,""parcel"":""first"",""corResp"":""left"",""condition"":""White people/Bad,Black people/Good"",""block"":4}",,,,
d7628c89122e8659c73070c56364fac3791cfa0c,raceiat,,,,,,cat2left,,,,,96,96,left,713,"[[""White people""]]","[""wm3_nc.jpg""]","{""score"":0,""parcel"":""first"",""corResp"":""left"",""condition"":""White people/Bad,Black people/Good"",""block"":4}",,,,
d7628c89122e8659c73070c56364fac3791cfa0c,raceiat,,,,,,att1left,,,,,97,97,left,1020,"[""Bad""]","[""Ugly""]","{""score"":0,""parcel"":""first"",""corResp"":""left"",""condition"":""White people/Bad,Black people/Good"",""block"":4}",,,,
d7628c89122e8659c73070c56364fac3791cfa0c,raceiat,,,,,,cat1right,,,,,98,98,right,839,"[[""Black people""]]","[""bm1_nc.jpg""]","{""score"":0,""parcel"":""first"",""corResp"":""right"",""condition"":""White people/Bad,Black people/Good"",""block"":4}",,,,
d7628c89122e8659c73070c56364fac3791cfa0c,raceiat,,,,,,att2right,,,,,99,99,right,1267,"[""Good""]","[""Love""]","{""score"":0,""parcel"":""first"",""corResp"":""right"",""condition"":""White people/Bad,Black people/Good"",""block"":4}",,,,
d7628c89122e8659c73070c56364fac3791cfa0c,raceiat,,,,,,cat1right,,,,,100,100,right,650,"[[""Black people""]]","[""bf1_nc.jpg""]","{""score"":0,""parcel"":""first"",""corResp"":""right"",""condition"":""White people/Bad,Black people/Good"",""block"":4}",,,,
d7628c89122e8659c73070c56364fac3791cfa0c,raceiat,,,,,,att2right,,,,,101,101,right,651,"[""Good""]","[""Fantastic""]","{""score"":0,""parcel"":""first"",""corResp"":""right"",""condition"":""White people/Bad,Black people/Good"",""block"":4}",,,,
d7628c89122e8659c73070c56364fac3791cfa0c,raceiat,,,,,,cat2left,,,,,102,102,left,779,"[[""White people""]]","[""wm1_nc.jpg""]","{""score"":0,""parcel"":""first"",""corResp"":""left"",""condition"":""White people/Bad,Black people/Good"",""block"":4}",,,,
d7628c89122e8659c73070c56364fac3791cfa0c,raceiat,,,,,,att1left,,,,,103,103,left,608,"[""Bad""]","[""Annoy""]","{""score"":0,""parcel"":""first"",""corResp"":""left"",""condition"":""White people/Bad,Black people/Good"",""block"":4}",,,,
d7628c89122e8659c73070c56364fac3791cfa0c,raceiat,,,,,,instructions,,,,,104,104,space,2107,"[""dummy""]","["" ""]","{""blockStart"":true,""condition"":""instructions"",""score"":0,""block"":0}",,,,
d7628c89122e8659c73070c56364fac3791cfa0c,raceiat,,,,,,cat2right,,,,,105,105,right,3388,"[[""White people""]]","[""wm3_nc.jpg""]","{""score"":0,""parcel"":""first"",""corResp"":""right"",""condition"":""Black people,White people"",""block"":5}",,,,
d7628c89122e8659c73070c56364fac3791cfa0c,raceiat,,,,,,cat1left,,,,,106,106,left,755,"[[""Black people""]]","[""bf2_nc.jpg""]","{""score"":0,""parcel"":""first"",""corResp"":""left"",""condition"":""Black people,White people"",""block"":5}",,,,
d7628c89122e8659c73070c56364fac3791cfa0c,raceiat,,,,,,cat1left,,,,,107,107,left,1175,"[[""Black people""]]","[""bf3_nc.jpg""]","{""score"":0,""parcel"":""first"",""corResp"":""left"",""condition"":""Black people,White people"",""block"":5}",,,,
d7628c89122e8659c73070c56364fac3791cfa0c,raceiat,,,,,,cat2right,,,,,108,108,right,659,"[[""White people""]]","[""wf3_nc.jpg""]","{""score"":0,""parcel"":""first"",""corResp"":""right"",""condition"":""Black people,White people"",""block"":5}",,,,
d7628c89122e8659c73070c56364fac3791cfa0c,raceiat,,,,,,cat2right,,,,,109,109,right,945,"[[""White people""]]","[""wf1_nc.jpg""]","{""score"":0,""parcel"":""first"",""corResp"":""right"",""condition"":""Black people,White people"",""block"":5}",,,,
d7628c89122e8659c73070c56364fac3791cfa0c,raceiat,,,,,,cat1left,,,,,110,110,left,614,"[[""Black people""]]","[""bm3_nc.jpg""]","{""score"":0,""parcel"":""first"",""corResp"":""left"",""condition"":""Black people,White people"",""block"":5}",,,,
d7628c89122e8659c73070c56364fac3791cfa0c,raceiat,,,,,,cat2right,,,,,111,111,right,823,"[[""White people""]]","[""wm2_nc.jpg""]","{""score"":0,""parcel"":""first"",""corResp"":""right"",""condition"":""Black people,White people"",""block"":5}",,,,
d7628c89122e8659c73070c56364fac3791cfa0c,raceiat,,,,,,cat1left,,,,,112,112,left,553,"[[""Black people""]]","[""bm2_nc.jpg""]","{""score"":0,""parcel"":""first"",""corResp"":""left"",""condition"":""Black people,White people"",""block"":5}",,,,
d7628c89122e8659c73070c56364fac3791cfa0c,raceiat,,,,,,cat2right,,,,,113,113,right,537,"[[""White people""]]","[""wf2_nc.jpg""]","{""score"":0,""parcel"":""first"",""corResp"":""right"",""condition"":""Black people,White people"",""block"":5}",,,,
d7628c89122e8659c73070c56364fac3791cfa0c,raceiat,,,,,,cat2right,,,,,114,114,right,914,"[[""White people""]]","[""wm1_nc.jpg""]","{""score"":0,""parcel"":""first"",""corResp"":""right"",""condition"":""Black people,White people"",""block"":5}",,,,
d7628c89122e8659c73070c56364fac3791cfa0c,raceiat,,,,,,cat1left,,,,,115,115,left,587,"[[""Black people""]]","[""bm1_nc.jpg""]","{""score"":0,""parcel"":""first"",""corResp"":""left"",""condition"":""Black people,White people"",""block"":5}",,,,
d7628c89122e8659c73070c56364fac3791cfa0c,raceiat,,,,,,cat1left,,,,,116,116,left,712,"[[""Black people""]]","[""bf3_nc.jpg""]","{""score"":0,""parcel"":""first"",""corResp"":""left"",""condition"":""Black people,White people"",""block"":5}",,,,
d7628c89122e8659c73070c56364fac3791cfa0c,raceiat,,,,,,cat1left,,,,,117,117,left,721,"[[""Black people""]]","[""bm3_nc.jpg""]","{""score"":0,""parcel"":""first"",""corResp"":""left"",""condition"":""Black people,White people"",""block"":5}",,,,
d7628c89122e8659c73070c56364fac3791cfa0c,raceiat,,,,,,cat2right,,,,,118,118,right,641,"[[""White people""]]","[""wf2_nc.jpg""]","{""score"":0,""parcel"":""first"",""corResp"":""right"",""condition"":""Black people,White people"",""block"":5}",,,,
d7628c89122e8659c73070c56364fac3791cfa0c,raceiat,,,,,,cat1left,,,,,119,119,left,641,"[[""Black people""]]","[""bf1_nc.jpg""]","{""score"":0,""parcel"":""first"",""corResp"":""left"",""condition"":""Black people,White people"",""block"":5}",,,,
d7628c89122e8659c73070c56364fac3791cfa0c,raceiat,,,,,,cat2right,,,,,120,120,right,602,"[[""White people""]]","[""wm2_nc.jpg""]","{""score"":0,""parcel"":""first"",""corResp"":""right"",""condition"":""Black people,White people"",""block"":5}",,,,
d7628c89122e8659c73070c56364fac3791cfa0c,raceiat,,,,,,cat1left,,,,,121,121,left,573,"[[""Black people""]]","[""bf2_nc.jpg""]","{""score"":0,""parcel"":""first"",""corResp"":""left"",""condition"":""Black people,White people"",""block"":5}",,,,
d7628c89122e8659c73070c56364fac3791cfa0c,raceiat,,,,,,cat1left,,,,,122,122,left,714,"[[""Black people""]]","[""bm2_nc.jpg""]","{""score"":0,""parcel"":""first"",""corResp"":""left"",""condition"":""Black people,White people"",""block"":5}",,,,
d7628c89122e8659c73070c56364fac3791cfa0c,raceiat,,,,,,cat2right,,,,,123,123,right,536,"[[""White people""]]","[""wf3_nc.jpg""]","{""score"":0,""parcel"":""first"",""corResp"":""right"",""condition"":""Black people,White people"",""block"":5}",,,,
d7628c89122e8659c73070c56364fac3791cfa0c,raceiat,,,,,,cat2right,,,,,124,124,right,622,"[[""White people""]]","[""wf1_nc.jpg""]","{""score"":0,""parcel"":""first"",""corResp"":""right"",""condition"":""Black people,White people"",""block"":5}",,,,
d7628c89122e8659c73070c56364fac3791cfa0c,raceiat,,,,,,cat2right,,,,,125,125,right,607,"[[""White people""]]","[""wm3_nc.jpg""]","{""score"":0,""parcel"":""first"",""corResp"":""right"",""condition"":""Black people,White people"",""block"":5}",,,,
d7628c89122e8659c73070c56364fac3791cfa0c,raceiat,,,,,,cat1left,,,,,126,126,left,610,"[[""Black people""]]","[""bm1_nc.jpg""]","{""score"":0,""parcel"":""first"",""corResp"":""left"",""condition"":""Black people,White people"",""block"":5}",,,,
d7628c89122e8659c73070c56364fac3791cfa0c,raceiat,,,,,,cat1left,,,,,127,127,left,1467,"[[""Black people""]]","[""bf3_nc.jpg""]","{""score"":0,""parcel"":""first"",""corResp"":""left"",""condition"":""Black people,White people"",""block"":5}",,,,
d7628c89122e8659c73070c56364fac3791cfa0c,raceiat,,,,,,cat2right,,,,,128,128,right,649,"[[""White people""]]","[""wm3_nc.jpg""]","{""score"":0,""parcel"":""first"",""corResp"":""right"",""condition"":""Black people,White people"",""block"":5}",,,,
d7628c89122e8659c73070c56364fac3791cfa0c,raceiat,,,,,,cat2right,,,,,129,129,right,1003,"[[""White people""]]","[""wf3_nc.jpg""]","{""score"":0,""parcel"":""first"",""corResp"":""right"",""condition"":""Black people,White people"",""block"":5}",,,,
d7628c89122e8659c73070c56364fac3791cfa0c,raceiat,,,,,,cat1left,,,,,130,130,left,652,"[[""Black people""]]","[""bm1_nc.jpg""]","{""score"":0,""parcel"":""first"",""corResp"":""left"",""condition"":""Black people,White people"",""block"":5}",,,,
d7628c89122e8659c73070c56364fac3791cfa0c,raceiat,,,,,,cat2right,,,,,131,131,right,741,"[[""White people""]]","[""wm2_nc.jpg""]","{""score"":0,""parcel"":""first"",""corResp"":""right"",""condition"":""Black people,White people"",""block"":5}",,,,
d7628c89122e8659c73070c56364fac3791cfa0c,raceiat,,,,,,cat1left,,,,,132,132,left,785,"[[""Black people""]]","[""bf2_nc.jpg""]","{""score"":0,""parcel"":""first"",""corResp"":""left"",""condition"":""Black people,White people"",""block"":5}",,,,
d7628c89122e8659c73070c56364fac3791cfa0c,raceiat,,,,,,instructions,,,,,133,133,space,2232,"[""dummy""]","["" ""]","{""blockStart"":true,""condition"":""instructions"",""score"":0,""block"":0}",,,,
d7628c89122e8659c73070c56364fac3791cfa0c,raceiat,,,,,,cat2right,,,,,134,134,right,1485,"[[""White people""]]","[""wm1_nc.jpg""]","{""score"":0,""parcel"":""first"",""corResp"":""right"",""condition"":""Black people/Bad,White people/Good"",""block"":6}",,,,
d7628c89122e8659c73070c56364fac3791cfa0c,raceiat,,,,,,att1left,,,,,135,135,left,719,"[""Bad""]","[""Yucky""]","{""score"":0,""parcel"":""first"",""corResp"":""left"",""condition"":""Black people/Bad,White people/Good"",""block"":6}",,,,
d7628c89122e8659c73070c56364fac3791cfa0c,raceiat,,,,,,cat1left,,,,,136,136,left,808,"[[""Black people""]]","[""bf1_nc.jpg""]","{""score"":0,""parcel"":""first"",""corResp"":""left"",""condition"":""Black people/Bad,White people/Good"",""block"":6}",,,,
d7628c89122e8659c73070c56364fac3791cfa0c,raceiat,,,,,,att2right,,,,,137,137,right,1160,"[""Good""]","[""Adore""]","{""score"":0,""parcel"":""first"",""corResp"":""right"",""condition"":""Black people/Bad,White people/Good"",""block"":6}",,,,
d7628c89122e8659c73070c56364fac3791cfa0c,raceiat,,,,,,cat2right,,,,,138,138,right,1304,"[[""White people""]]","[""wf1_nc.jpg""]","{""score"":0,""parcel"":""first"",""corResp"":""right"",""condition"":""Black people/Bad,White people/Good"",""block"":6}",,,,
d7628c89122e8659c73070c56364fac3791cfa0c,raceiat,,,,,,att1left,,,,,139,139,left,776,"[""Bad""]","[""Abuse""]","{""score"":0,""parcel"":""first"",""corResp"":""left"",""condition"":""Black people/Bad,White people/Good"",""block"":6}",,,,
d7628c89122e8659c73070c56364fac3791cfa0c,raceiat,,,,,,cat1left,,,,,140,140,left,680,"[[""Black people""]]","[""bm2_nc.jpg""]","{""score"":0,""parcel"":""first"",""corResp"":""left"",""condition"":""Black people/Bad,White people/Good"",""block"":6}",,,,
d7628c89122e8659c73070c56364fac3791cfa0c,raceiat,,,,,,att2right,,,,,141,141,right,1223,"[""Good""]","[""Joyous""]","{""score"":0,""parcel"":""first"",""corResp"":""right"",""condition"":""Black people/Bad,White people/Good"",""block"":6}",,,,
d7628c89122e8659c73070c56364fac3791cfa0c,raceiat,,,,,,cat1left,,,,,142,142,left,764,"[[""Black people""]]","[""bm3_nc.jpg""]","{""score"":0,""parcel"":""first"",""corResp"":""left"",""condition"":""Black people/Bad,White people/Good"",""block"":6}",,,,
d7628c89122e8659c73070c56364fac3791cfa0c,raceiat,,,,,,att1left,,,,,143,143,left,1494,"[""Bad""]","[""Disgust""]","{""score"":0,""parcel"":""first"",""corResp"":""left"",""condition"":""Black people/Bad,White people/Good"",""block"":6}",,,,
d7628c89122e8659c73070c56364fac3791cfa0c,raceiat,,,,,,cat2right,,,,,144,144,right,736,"[[""White people""]]","[""wf2_nc.jpg""]","{""score"":0,""parcel"":""first"",""corResp"":""right"",""condition"":""Black people/Bad,White people/Good"",""block"":6}",,,,
d7628c89122e8659c73070c56364fac3791cfa0c,raceiat,,,,,,att2right,,,,,145,145,right,815,"[""Good""]","[""Happy""]","{""score"":0,""parcel"":""first"",""corResp"":""right"",""condition"":""Black people/Bad,White people/Good"",""block"":6}",,,,
d7628c89122e8659c73070c56364fac3791cfa0c,raceiat,,,,,,cat1left,,,,,146,146,left,746,"[[""Black people""]]","[""bm2_nc.jpg""]","{""score"":0,""parcel"":""first"",""corResp"":""left"",""condition"":""Black people/Bad,White people/Good"",""block"":6}",,,,
d7628c89122e8659c73070c56364fac3791cfa0c,raceiat,,,,,,att2right,,,,,147,147,right,1141,"[""Good""]","[""Love""]","{""score"":0,""parcel"":""first"",""corResp"":""right"",""condition"":""Black people/Bad,White people/Good"",""block"":6}",,,,
d7628c89122e8659c73070c56364fac3791cfa0c,raceiat,,,,,,cat2right,,,,,148,148,right,702,"[[""White people""]]","[""wf3_nc.jpg""]","{""score"":0,""parcel"":""first"",""corResp"":""right"",""condition"":""Black people/Bad,White people/Good"",""block"":6}",,,,
d7628c89122e8659c73070c56364fac3791cfa0c,raceiat,,,,,,att1left,,,,,149,149,left,935,"[""Bad""]","[""Ugly""]","{""score"":0,""parcel"":""first"",""corResp"":""left"",""condition"":""Black people/Bad,White people/Good"",""block"":6}",,,,
d7628c89122e8659c73070c56364fac3791cfa0c,raceiat,,,,,,cat2right,,,,,150,150,right,795,"[[""White people""]]","[""wf2_nc.jpg""]","{""score"":0,""parcel"":""first"",""corResp"":""right"",""condition"":""Black people/Bad,White people/Good"",""block"":6}",,,,
d7628c89122e8659c73070c56364fac3791cfa0c,raceiat,,,,,,att1left,,,,,151,151,left,2764,"[""Bad""]","[""Sadness""]","{""score"":1,""parcel"":""first"",""corResp"":""left"",""condition"":""Black people/Bad,White people/Good"",""block"":6}",,,,
d7628c89122e8659c73070c56364fac3791cfa0c,raceiat,,,,,,cat1left,,,,,152,152,left,793,"[[""Black people""]]","[""bf1_nc.jpg""]","{""score"":0,""parcel"":""first"",""corResp"":""left"",""condition"":""Black people/Bad,White people/Good"",""block"":6}",,,,
d7628c89122e8659c73070c56364fac3791cfa0c,raceiat,,,,,,att2right,,,,,153,153,right,2246,"[""Good""]","[""Excellent""]","{""score"":1,""parcel"":""first"",""corResp"":""right"",""condition"":""Black people/Bad,White people/Good"",""block"":6}",,,,
d7628c89122e8659c73070c56364fac3791cfa0c,raceiat,,,,,,instructions,,,,,154,154,space,1109,"[""dummy""]","["" ""]","{""blockStart"":true,""condition"":""instructions"",""score"":0,""block"":0}",,,,
d7628c89122e8659c73070c56364fac3791cfa0c,raceiat,,,,,,cat2right,,,,,155,155,right,1634,"[[""White people""]]","[""wm3_nc.jpg""]","{""score"":0,""parcel"":""first"",""corResp"":""right"",""condition"":""Black people/Bad,White people/Good"",""block"":7}",,,,
d7628c89122e8659c73070c56364fac3791cfa0c,raceiat,,,,,,att2right,,,,,156,156,right,742,"[""Good""]","[""Joyful""]","{""score"":0,""parcel"":""first"",""corResp"":""right"",""condition"":""Black people/Bad,White people/Good"",""block"":7}",,,,
d7628c89122e8659c73070c56364fac3791cfa0c,raceiat,,,,,,cat1left,,,,,157,157,left,665,"[[""Black people""]]","[""bm3_nc.jpg""]","{""score"":0,""parcel"":""first"",""corResp"":""left"",""condition"":""Black people/Bad,White people/Good"",""block"":7}",,,,
d7628c89122e8659c73070c56364fac3791cfa0c,raceiat,,,,,,att1left,,,,,158,158,left,1068,"[""Bad""]","[""Detest""]","{""score"":0,""parcel"":""first"",""corResp"":""left"",""condition"":""Black people/Bad,White people/Good"",""block"":7}",,,,
d7628c89122e8659c73070c56364fac3791cfa0c,raceiat,,,,,,cat2right,,,,,159,159,right,623,"[[""White people""]]","[""wm1_nc.jpg""]","{""score"":0,""parcel"":""first"",""corResp"":""right"",""condition"":""Black people/Bad,White people/Good"",""block"":7}",,,,
d7628c89122e8659c73070c56364fac3791cfa0c,raceiat,,,,,,att1left,,,,,160,160,left,1046,"[""Bad""]","[""Hate""]","{""score"":0,""parcel"":""first"",""corResp"":""left"",""condition"":""Black people/Bad,White people/Good"",""block"":7}",,,,
d7628c89122e8659c73070c56364fac3791cfa0c,raceiat,,,,,,cat1left,,,,,161,161,left,718,"[[""Black people""]]","[""bf3_nc.jpg""]","{""score"":0,""parcel"":""first"",""corResp"":""left"",""condition"":""Black people/Bad,White people/Good"",""block"":7}",,,,
d7628c89122e8659c73070c56364fac3791cfa0c,raceiat,,,,,,att2right,,,,,162,162,right,678,"[""Good""]","[""Celebrate""]","{""score"":0,""parcel"":""first"",""corResp"":""right"",""condition"":""Black people/Bad,White people/Good"",""block"":7}",,,,
d7628c89122e8659c73070c56364fac3791cfa0c,raceiat,,,,,,cat2right,,,,,163,163,right,1170,"[[""White people""]]","[""wf1_nc.jpg""]","{""score"":0,""parcel"":""first"",""corResp"":""right"",""condition"":""Black people/Bad,White people/Good"",""block"":7}",,,,
d7628c89122e8659c73070c56364fac3791cfa0c,raceiat,,,,,,att1left,,,,,164,164,left,724,"[""Bad""]","[""Detest""]","{""score"":0,""parcel"":""first"",""corResp"":""left"",""condition"":""Black people/Bad,White people/Good"",""block"":7}",,,,
d7628c89122e8659c73070c56364fac3791cfa0c,raceiat,,,,,,cat1left,,,,,165,165,left,847,"[[""Black people""]]","[""bm1_nc.jpg""]","{""score"":0,""parcel"":""first"",""corResp"":""left"",""condition"":""Black people/Bad,White people/Good"",""block"":7}",,,,
d7628c89122e8659c73070c56364fac3791cfa0c,raceiat,,,,,,att2right,,,,,166,166,right,2343,"[""Good""]","[""Joyous""]","{""score"":1,""parcel"":""first"",""corResp"":""right"",""condition"":""Black people/Bad,White people/Good"",""block"":7}",,,,
d7628c89122e8659c73070c56364fac3791cfa0c,raceiat,,,,,,cat2right,,,,,167,167,right,1037,"[[""White people""]]","[""wm2_nc.jpg""]","{""score"":0,""parcel"":""first"",""corResp"":""right"",""condition"":""Black people/Bad,White people/Good"",""block"":7}",,,,
d7628c89122e8659c73070c56364fac3791cfa0c,raceiat,,,,,,att2right,,,,,168,168,right,919,"[""Good""]","[""Excellent""]","{""score"":0,""parcel"":""first"",""corResp"":""right"",""condition"":""Black people/Bad,White people/Good"",""block"":7}",,,,
d7628c89122e8659c73070c56364fac3791cfa0c,raceiat,,,,,,cat1left,,,,,169,169,left,692,"[[""Black people""]]","[""bf2_nc.jpg""]","{""score"":0,""parcel"":""first"",""corResp"":""left"",""condition"":""Black people/Bad,White people/Good"",""block"":7}",,,,
d7628c89122e8659c73070c56364fac3791cfa0c,raceiat,,,,,,att1left,,,,,170,170,left,1523,"[""Bad""]","[""Ugly""]","{""score"":0,""parcel"":""first"",""corResp"":""left"",""condition"":""Black people/Bad,White people/Good"",""block"":7}",,,,
d7628c89122e8659c73070c56364fac3791cfa0c,raceiat,,,,,,cat1left,,,,,171,171,left,708,"[[""Black people""]]","[""bf3_nc.jpg""]","{""score"":0,""parcel"":""first"",""corResp"":""left"",""condition"":""Black people/Bad,White people/Good"",""block"":7}",,,,
d7628c89122e8659c73070c56364fac3791cfa0c,raceiat,,,,,,att1left,,,,,172,172,left,800,"[""Bad""]","[""Hate""]","{""score"":0,""parcel"":""first"",""corResp"":""left"",""condition"":""Black people/Bad,White people/Good"",""block"":7}",,,,
d7628c89122e8659c73070c56364fac3791cfa0c,raceiat,,,,,,cat2right,,,,,173,173,right,541,"[[""White people""]]","[""wf2_nc.jpg""]","{""score"":0,""parcel"":""first"",""corResp"":""right"",""condition"":""Black people/Bad,White people/Good"",""block"":7}",,,,
d7628c89122e8659c73070c56364fac3791cfa0c,raceiat,,,,,,att2right,,,,,174,174,right,707,"[""Good""]","[""Celebrate""]","{""score"":0,""parcel"":""first"",""corResp"":""right"",""condition"":""Black people/Bad,White people/Good"",""block"":7}",,,,
d7628c89122e8659c73070c56364fac3791cfa0c,raceiat,,,,,,cat1left,,,,,175,175,left,856,"[[""Black people""]]","[""bf2_nc.jpg""]","{""score"":0,""parcel"":""first"",""corResp"":""left"",""condition"":""Black people/Bad,White people/Good"",""block"":7}",,,,
d7628c89122e8659c73070c56364fac3791cfa0c,raceiat,,,,,,att2right,,,,,176,176,right,813,"[""Good""]","[""Joyful""]","{""score"":0,""parcel"":""first"",""corResp"":""right"",""condition"":""Black people/Bad,White people/Good"",""block"":7}",,,,
d7628c89122e8659c73070c56364fac3791cfa0c,raceiat,,,,,,cat2right,,,,,177,177,right,915,"[[""White people""]]","[""wm2_nc.jpg""]","{""score"":0,""parcel"":""first"",""corResp"":""right"",""condition"":""Black people/Bad,White people/Good"",""block"":7}",,,,
d7628c89122e8659c73070c56364fac3791cfa0c,raceiat,,,,,,att1left,,,,,178,178,left,1375,"[""Bad""]","[""Abuse""]","{""score"":0,""parcel"":""first"",""corResp"":""left"",""condition"":""Black people/Bad,White people/Good"",""block"":7}",,,,
d7628c89122e8659c73070c56364fac3791cfa0c,raceiat,,,,,,cat2right,,,,,179,179,right,875,"[[""White people""]]","[""wf1_nc.jpg""]","{""score"":0,""parcel"":""first"",""corResp"":""right"",""condition"":""Black people/Bad,White people/Good"",""block"":7}",,,,
d7628c89122e8659c73070c56364fac3791cfa0c,raceiat,,,,,,att1left,,,,,180,180,left,1155,"[""Bad""]","[""Annoy""]","{""score"":0,""parcel"":""first"",""corResp"":""left"",""condition"":""Black people/Bad,White people/Good"",""block"":7}",,,,
d7628c89122e8659c73070c56364fac3791cfa0c,raceiat,,,,,,cat1left,,,,,181,181,left,1642,"[[""Black people""]]","[""bf1_nc.jpg""]","{""score"":0,""parcel"":""first"",""corResp"":""left"",""condition"":""Black people/Bad,White people/Good"",""block"":7}",,,,
d7628c89122e8659c73070c56364fac3791cfa0c,raceiat,,,,,,att2right,,,,,182,182,right,988,"[""Good""]","[""Love""]","{""score"":0,""parcel"":""first"",""corResp"":""right"",""condition"":""Black people/Bad,White people/Good"",""block"":7}",,,,
d7628c89122e8659c73070c56364fac3791cfa0c,raceiat,,,,,,cat1left,,,,,183,183,left,803,"[[""Black people""]]","[""bm3_nc.jpg""]","{""score"":0,""parcel"":""first"",""corResp"":""left"",""condition"":""Black people/Bad,White people/Good"",""block"":7}",,,,
d7628c89122e8659c73070c56364fac3791cfa0c,raceiat,,,,,,att1left,,,,,184,184,left,1007,"[""Bad""]","[""Disgust""]","{""score"":0,""parcel"":""first"",""corResp"":""left"",""condition"":""Black people/Bad,White people/Good"",""block"":7}",,,,
d7628c89122e8659c73070c56364fac3791cfa0c,raceiat,,,,,,cat2right,,,,,185,185,right,636,"[[""White people""]]","[""wf3_nc.jpg""]","{""score"":0,""parcel"":""first"",""corResp"":""right"",""condition"":""Black people/Bad,White people/Good"",""block"":7}",,,,
d7628c89122e8659c73070c56364fac3791cfa0c,raceiat,,,,,,att2right,,,,,186,186,right,791,"[""Good""]","[""Fantastic""]","{""score"":0,""parcel"":""first"",""corResp"":""right"",""condition"":""Black people/Bad,White people/Good"",""block"":7}",,,,
d7628c89122e8659c73070c56364fac3791cfa0c,raceiat,,,,,,cat1left,,,,,187,187,left,750,"[[""Black people""]]","[""bm2_nc.jpg""]","{""score"":0,""parcel"":""first"",""corResp"":""left"",""condition"":""Black people/Bad,White people/Good"",""block"":7}",,,,
d7628c89122e8659c73070c56364fac3791cfa0c,raceiat,,,,,,att2right,,,,,188,188,right,1121,"[""Good""]","[""Happy""]","{""score"":0,""parcel"":""first"",""corResp"":""right"",""condition"":""Black people/Bad,White people/Good"",""block"":7}",,,,
d7628c89122e8659c73070c56364fac3791cfa0c,raceiat,,,,,,cat2right,,,,,189,189,right,673,"[[""White people""]]","[""wm3_nc.jpg""]","{""score"":0,""parcel"":""first"",""corResp"":""right"",""condition"":""Black people/Bad,White people/Good"",""block"":7}",,,,
d7628c89122e8659c73070c56364fac3791cfa0c,raceiat,,,,,,att1left,,,,,190,190,left,786,"[""Bad""]","[""Yucky""]","{""score"":0,""parcel"":""first"",""corResp"":""left"",""condition"":""Black people/Bad,White people/Good"",""block"":7}",,,,
d7628c89122e8659c73070c56364fac3791cfa0c,raceiat,,,,,,cat1left,,,,,191,191,left,803,"[[""Black people""]]","[""bm1_nc.jpg""]","{""score"":0,""parcel"":""first"",""corResp"":""left"",""condition"":""Black people/Bad,White people/Good"",""block"":7}",,,,
d7628c89122e8659c73070c56364fac3791cfa0c,raceiat,,,,,,att1left,,,,,192,192,left,890,"[""Bad""]","[""Sadness""]","{""score"":0,""parcel"":""first"",""corResp"":""left"",""condition"":""Black people/Bad,White people/Good"",""block"":7}",,,,
d7628c89122e8659c73070c56364fac3791cfa0c,raceiat,,,,,,cat2right,,,,,193,193,right,609,"[[""White people""]]","[""wm1_nc.jpg""]","{""score"":0,""parcel"":""first"",""corResp"":""right"",""condition"":""Black people/Bad,White people/Good"",""block"":7}",,,,
d7628c89122e8659c73070c56364fac3791cfa0c,raceiat,,,,,,att2right,,,,,194,194,right,960,"[""Good""]","[""Adore""]","{""score"":0,""parcel"":""first"",""corResp"":""right"",""condition"":""Black people/Bad,White people/Good"",""block"":7}",,,,
d7628c89122e8659c73070c56364fac3791cfa0c,raceiat,,,,,,instructions,,,,,195,195,space,1218,"[""Default""]","[""Press space to continue to the next task""]","{""blockStart"":true,""condition"":""instructions"",""score"":0,""block"":0}",,,,
d7628c89122e8659c73070c56364fac3791cfa0c,raceiat,,,,,,,,,,,,,,,,,,"White people/Bad,Black people/Good",Your responses suggested a moderate automatic preference for White people over Black people.,-0.44,
d7628c89122e8659c73070c56364fac3791cfa0c,rwascale,,,,6,rwascale.js,,,,,,,,,,,,,,,,
d7628c89122e8659c73070c56364fac3791cfa0c,rwascale,,,,,,rwaf20,4,18,,3798.8999996185303,,,,2342.8999996185303,,,,,,,2342.8999996185303
d7628c89122e8659c73070c56364fac3791cfa0c,rwascale,,,,,,rwaf15,5,19,,9520,,,,857.5,,,,,,,857.5
d7628c89122e8659c73070c56364fac3791cfa0c,rwascale,,,,,,rwaf17,,20,true,1353.5999994277954,,,,,,,,,,,
d7628c89122e8659c73070c56364fac3791cfa0c,rwascale,,,,,,rwaf10,,21,true,1446,,,,,,,,,,,
d7628c89122e8659c73070c56364fac3791cfa0c,rwascale,,,,,,rwaf2,,22,true,1146.3000001907349,,,,,,,,,,,
d7628c89122e8659c73070c56364fac3791cfa0c,rwascale,,,,,,rwaf7,,23,true,1047.6000003814697,,,,,,,,,,,
d7628c89122e8659c73070c56364fac3791cfa0c,rwascale,,,,,,rwaf8,,24,true,1428.7999992370605,,,,,,,,,,,
d7628c89122e8659c73070c56364fac3791cfa0c,rwascale,,,,,,rwaf16,,25,true,1254,,,,,,,,,,,
d7628c89122e8659c73070c56364fac3791cfa0c,rwascale,,,,,,rwaf18,,26,true,1137.1999998092651,,,,,,,,,,,
d7628c89122e8659c73070c56364fac3791cfa0c,rwascale,,,,,,rwaf4,,27,true,1531.1999998092651,,,,,,,,,,,
d7628c89122e8659c73070c56364fac3791cfa0c,rwascale,,,,,,rwaf5,,28,true,1026.8000001907349,,,,,,,,,,,
d7628c89122e8659c73070c56364fac3791cfa0c,rwascale,,,,,,rwaf9,,29,true,2064.3999996185303,,,,,,,,,,,
d7628c89122e8659c73070c56364fac3791cfa0c,rwascale,,,,,,rwaf6,,30,true,696.5999994277954,,,,,,,,,,,
d7628c89122e8659c73070c56364fac3791cfa0c,rwascale,,,,,,rwaf14,,31,true,1122.5999994277954,,,,,,,,,,,
d7628c89122e8659c73070c56364fac3791cfa0c,rwascale,,,,,,rwaf11,,32,true,798.5,,,,,,,,,,,
d7628c89122e8659c73070c56364fac3791cfa0c,rwascale,,,,,,rwaf1,,33,true,818.3999996185303,,,,,,,,,,,
d7628c89122e8659c73070c56364fac3791cfa0c,rwascale,,,,,,rwaf19,,34,true,869,,,,,,,,,,,
d7628c89122e8659c73070c56364fac3791cfa0c,rwascale,,,,,,rwaf13,,35,true,936.2999992370605,,,,,,,,,,,
d7628c89122e8659c73070c56364fac3791cfa0c,rwascale,,,,,,rwaf3,,36,true,661.4000005722046,,,,,,,,,,,
d7628c89122e8659c73070c56364fac3791cfa0c,rwascale,,,,,,rwaf12,,37,true,1141.1999998092651,,,,,,,,,,,
d7628c89122e8659c73070c56364fac3791cfa0c,debriefing,,,,7,debriefing.js,,,,,,,,,,,,,,,,
d7628c89122e8659c73070c56364fac3791cfa0c,debriefing,,,,,,broughtwebsite,Other,38,,40174.599999427795,,,,19831,,,,,,,19831
d7628c89122e8659c73070c56364fac3791cfa0c,debriefing,,,,,,iatevaluations1,1,39,,40171.5,,,,28299.300000190735,,,,,,,25208.699999809265
d7628c89122e8659c73070c56364fac3791cfa0c,debriefing,,,,,,iatevaluations2,1,40,,40170.300000190735,,,,35308,,,,,,,35308
d7628c89122e8659c73070c56364fac3791cfa0c,debriefing,,,,,,iatevaluations3,1,41,,40169.800000190735,,,,38626.5,,,,,,,38626.5
d7628c89122e8659c73070c56364fac3791cfa0c,namelessTask,,,,8,,,,,,,,,,,,,,,,,
